{
  "metadata": {
    "fileName": ["dm.sas7bdat"],
    "rowCount": [60],
    "columnCount": [23],
    "columnNames": ["STUDYID", "DOMAIN", "USUBJID", "SUBJID", "RFSTDTC", "RFENDTC", "RFXSTDTC", "RFXENDTC", "RFICDTC", "RFPENDTC", "DTHDTC", "DTHFL", "SITEID", "BRTHDTC", "AGE", "AGEU", "SEX", "RACE", "ARMCD", "ARM", "ACTARMCD", "ACTARM", "COUNTRY"],
    "columnLabels": ["Study Identifier", "Domain Abbreviation", "Unique Subject Identifier", "Subject Identifier for the Study", "Subject Reference Start Date/Time", "Subject Reference End Date/Time", "Date/Time of First Study Treatment", "Date/Time of Last Study Treatment", "Date/Time of Informed Consent", "Date/Time of End of Participation", "Date/Time of Death", "Subject Death Flag", "Study Site Identifier", "Date/Time of Birth", "Age", "Age Units", "Sex", "Race", "Planned Arm Code", "Description of Planned Arm", "Actual Arm Code", "Description of Actual Arm", "Country"],
    "datasetLabel": [""],
    "datasetFormat": [""],
    "otherAttributes": {
      "class": ["tbl_df", "tbl", "data.frame"],
      "row.names": [1, 2, 3, 4, 5, 6, 7, 8, 9, 10, 11, 12, 13, 14, 15, 16, 17, 18, 19, 20, 21, 22, 23, 24, 25, 26, 27, 28, 29, 30, 31, 32, 33, 34, 35, 36, 37, 38, 39, 40, 41, 42, 43, 44, 45, 46, 47, 48, 49, 50, 51, 52, 53, 54, 55, 56, 57, 58, 59, 60],
      "names": ["STUDYID", "DOMAIN", "USUBJID", "SUBJID", "RFSTDTC", "RFENDTC", "RFXSTDTC", "RFXENDTC", "RFICDTC", "RFPENDTC", "DTHDTC", "DTHFL", "SITEID", "BRTHDTC", "AGE", "AGEU", "SEX", "RACE", "ARMCD", "ARM", "ACTARMCD", "ACTARM", "COUNTRY"]
    }
  },
  "data": [
    {
      "STUDYID": "XYZ123",
      "DOMAIN": "DM",
      "USUBJID": "UNI101",
      "SUBJID": "101",
      "RFSTDTC": "2010-04-02",
      "RFENDTC": "2010-10-10",
      "RFXSTDTC": "2010-04-02",
      "RFXENDTC": "2010-10-10",
      "RFICDTC": "2010-03-28",
      "RFPENDTC": "2010-10-10",
      "DTHDTC": "",
      "DTHFL": "N",
      "SITEID": "100",
      "BRTHDTC": "1974-02-05",
      "AGE": 36,
      "AGEU": "YEARS",
      "SEX": "M",
      "RACE": "ASIAN",
      "ARMCD": "PLACEBO",
      "ARM": "Placebo",
      "ACTARMCD": "PLACEBO",
      "ACTARM": "Placebo",
      "COUNTRY": "USA"
    },
    {
      "STUDYID": "XYZ123",
      "DOMAIN": "DM",
      "USUBJID": "UNI102",
      "SUBJID": "102",
      "RFSTDTC": "2010-02-13",
      "RFENDTC": "2010-08-10",
      "RFXSTDTC": "2010-02-13",
      "RFXENDTC": "2010-08-10",
      "RFICDTC": "2010-02-07",
      "RFPENDTC": "2010-08-11",
      "DTHDTC": "",
      "DTHFL": "N",
      "SITEID": "100",
      "BRTHDTC": "1946-11-02",
      "AGE": 63,
      "AGEU": "YEARS",
      "SEX": "F",
      "RACE": "WHITE",
      "ARMCD": "ALG123",
      "ARM": "Analgezia HCL 30 mg",
      "ACTARMCD": "ALG123",
      "ACTARM": "Analgezia HCL 30 mg",
      "COUNTRY": "USA"
    },
    {
      "STUDYID": "XYZ123",
      "DOMAIN": "DM",
      "USUBJID": "UNI103",
      "SUBJID": "103",
      "RFSTDTC": "2010-05-16",
      "RFENDTC": "2010-11-14",
      "RFXSTDTC": "2010-05-16",
      "RFXENDTC": "2010-11-14",
      "RFICDTC": "2010-05-12",
      "RFPENDTC": "2010-11-15",
      "DTHDTC": "",
      "DTHFL": "N",
      "SITEID": "100",
      "BRTHDTC": "1979-05-01",
      "AGE": 31,
      "AGEU": "YEARS",
      "SEX": "M",
      "RACE": "BLACK OR AFRICAN AMERICAN",
      "ARMCD": "ALG123",
      "ARM": "Analgezia HCL 30 mg",
      "ACTARMCD": "ALG123",
      "ACTARM": "Analgezia HCL 30 mg",
      "COUNTRY": "USA"
    },
    {
      "STUDYID": "XYZ123",
      "DOMAIN": "DM",
      "USUBJID": "UNI104",
      "SUBJID": "104",
      "RFSTDTC": "2010-01-02",
      "RFENDTC": "2010-07-04",
      "RFXSTDTC": "2010-01-02",
      "RFXENDTC": "2010-07-04",
      "RFICDTC": "2009-12-28",
      "RFPENDTC": "2010-07-04",
      "DTHDTC": "",
      "DTHFL": "N",
      "SITEID": "100",
      "BRTHDTC": "1972-05-01",
      "AGE": 37,
      "AGEU": "YEARS",
      "SEX": "F",
      "RACE": "WHITE",
      "ARMCD": "PLACEBO",
      "ARM": "Placebo",
      "ACTARMCD": "PLACEBO",
      "ACTARM": "Placebo",
      "COUNTRY": "USA"
    },
    {
      "STUDYID": "XYZ123",
      "DOMAIN": "DM",
      "USUBJID": "UNI105",
      "SUBJID": "105",
      "RFSTDTC": "2010-04-20",
      "RFENDTC": "2010-10-19",
      "RFXSTDTC": "2010-04-20",
      "RFXENDTC": "2010-10-19",
      "RFICDTC": "2010-04-15",
      "RFPENDTC": "2010-10-19",
      "DTHDTC": "",
      "DTHFL": "N",
      "SITEID": "100",
      "BRTHDTC": "1979-03-02",
      "AGE": 31,
      "AGEU": "YEARS",
      "SEX": "M",
      "RACE": "ASIAN",
      "ARMCD": "ALG123",
      "ARM": "Analgezia HCL 30 mg",
      "ACTARMCD": "ALG123",
      "ACTARM": "Analgezia HCL 30 mg",
      "COUNTRY": "USA"
    },
    {
      "STUDYID": "XYZ123",
      "DOMAIN": "DM",
      "USUBJID": "UNI106",
      "SUBJID": "106",
      "RFSTDTC": "2010-04-01",
      "RFENDTC": "2010-10-10",
      "RFXSTDTC": "2010-04-01",
      "RFXENDTC": "2010-10-10",
      "RFICDTC": "2010-03-27",
      "RFPENDTC": "2010-10-10",
      "DTHDTC": "",
      "DTHFL": "N",
      "SITEID": "100",
      "BRTHDTC": "1977-05-01",
      "AGE": 32,
      "AGEU": "YEARS",
      "SEX": "F",
      "RACE": "WHITE",
      "ARMCD": "PLACEBO",
      "ARM": "Placebo",
      "ACTARMCD": "PLACEBO",
      "ACTARM": "Placebo",
      "COUNTRY": "USA"
    },
    {
      "STUDYID": "XYZ123",
      "DOMAIN": "DM",
      "USUBJID": "UNI201",
      "SUBJID": "201",
      "RFSTDTC": "2010-06-11",
      "RFENDTC": "2010-12-11",
      "RFXSTDTC": "2010-06-11",
      "RFXENDTC": "2010-12-11",
      "RFICDTC": "2010-06-05",
      "RFPENDTC": "2010-12-12",
      "DTHDTC": "",
      "DTHFL": "N",
      "SITEID": "200",
      "BRTHDTC": "1949-04-28",
      "AGE": 61,
      "AGEU": "YEARS",
      "SEX": "M",
      "RACE": "ASIAN",
      "ARMCD": "ALG123",
      "ARM": "Analgezia HCL 30 mg",
      "ACTARMCD": "ALG123",
      "ACTARM": "Analgezia HCL 30 mg",
      "COUNTRY": "USA"
    },
    {
      "STUDYID": "XYZ123",
      "DOMAIN": "DM",
      "USUBJID": "UNI202",
      "SUBJID": "202",
      "RFSTDTC": "2010-02-23",
      "RFENDTC": "2010-05-19",
      "RFXSTDTC": "2010-02-23",
      "RFXENDTC": "2010-05-19",
      "RFICDTC": "2010-02-19",
      "RFPENDTC": "2010-07-20",
      "DTHDTC": "",
      "DTHFL": "N",
      "SITEID": "200",
      "BRTHDTC": "1967-01-13",
      "AGE": 43,
      "AGEU": "YEARS",
      "SEX": "F",
      "RACE": "WHITE",
      "ARMCD": "PLACEBO",
      "ARM": "Placebo",
      "ACTARMCD": "PLACEBO",
      "ACTARM": "Placebo",
      "COUNTRY": "USA"
    },
    {
      "STUDYID": "XYZ123",
      "DOMAIN": "DM",
      "USUBJID": "UNI203",
      "SUBJID": "203",
      "RFSTDTC": "2010-06-10",
      "RFENDTC": "2010-06-20",
      "RFXSTDTC": "2010-06-10",
      "RFXENDTC": "2010-06-20",
      "RFICDTC": "2010-06-05",
      "RFPENDTC": "2010-12-10",
      "DTHDTC": "",
      "DTHFL": "N",
      "SITEID": "200",
      "BRTHDTC": "1971-01-01",
      "AGE": 39,
      "AGEU": "YEARS",
      "SEX": "M",
      "RACE": "BLACK OR AFRICAN AMERICAN",
      "ARMCD": "ALG123",
      "ARM": "Analgezia HCL 30 mg",
      "ACTARMCD": "ALG123",
      "ACTARM": "Analgezia HCL 30 mg",
      "COUNTRY": "USA"
    },
    {
      "STUDYID": "XYZ123",
      "DOMAIN": "DM",
      "USUBJID": "UNI204",
      "SUBJID": "204",
      "RFSTDTC": "2010-02-03",
      "RFENDTC": "2010-08-03",
      "RFXSTDTC": "2010-02-03",
      "RFXENDTC": "2010-08-03",
      "RFICDTC": "2010-01-28",
      "RFPENDTC": "2010-08-05",
      "DTHDTC": "",
      "DTHFL": "N",
      "SITEID": "200",
      "BRTHDTC": "1950-04-17",
      "AGE": 59,
      "AGEU": "YEARS",
      "SEX": "F",
      "RACE": "WHITE",
      "ARMCD": "PLACEBO",
      "ARM": "Placebo",
      "ACTARMCD": "PLACEBO",
      "ACTARM": "Placebo",
      "COUNTRY": "USA"
    },
    {
      "STUDYID": "XYZ123",
      "DOMAIN": "DM",
      "USUBJID": "UNI205",
      "SUBJID": "205",
      "RFSTDTC": "2010-04-13",
      "RFENDTC": "2010-10-10",
      "RFXSTDTC": "2010-04-13",
      "RFXENDTC": "2010-10-10",
      "RFICDTC": "2010-04-10",
      "RFPENDTC": "2010-10-10",
      "DTHDTC": "",
      "DTHFL": "N",
      "SITEID": "200",
      "BRTHDTC": "1978-05-13",
      "AGE": 31,
      "AGEU": "YEARS",
      "SEX": "M",
      "RACE": "ASIAN",
      "ARMCD": "ALG123",
      "ARM": "Analgezia HCL 30 mg",
      "ACTARMCD": "ALG123",
      "ACTARM": "Analgezia HCL 30 mg",
      "COUNTRY": "USA"
    },
    {
      "STUDYID": "XYZ123",
      "DOMAIN": "DM",
      "USUBJID": "UNI206",
      "SUBJID": "206",
      "RFSTDTC": "2010-07-01",
      "RFENDTC": "2010-12-27",
      "RFXSTDTC": "2010-07-01",
      "RFXENDTC": "2010-12-27",
      "RFICDTC": "2010-06-25",
      "RFPENDTC": "2010-12-28",
      "DTHDTC": "",
      "DTHFL": "N",
      "SITEID": "200",
      "BRTHDTC": "1948-02-09",
      "AGE": 62,
      "AGEU": "YEARS",
      "SEX": "F",
      "RACE": "WHITE",
      "ARMCD": "ALG123",
      "ARM": "Analgezia HCL 30 mg",
      "ACTARMCD": "ALG123",
      "ACTARM": "Analgezia HCL 30 mg",
      "COUNTRY": "USA"
    },
    {
      "STUDYID": "XYZ123",
      "DOMAIN": "DM",
      "USUBJID": "UNI301",
      "SUBJID": "301",
      "RFSTDTC": "2010-02-20",
      "RFENDTC": "2010-08-22",
      "RFXSTDTC": "2010-02-20",
      "RFXENDTC": "2010-08-22",
      "RFICDTC": "2010-02-10",
      "RFPENDTC": "2010-08-22",
      "DTHDTC": "",
      "DTHFL": "N",
      "SITEID": "300",
      "BRTHDTC": "1941-04-12",
      "AGE": 68,
      "AGEU": "YEARS",
      "SEX": "M",
      "RACE": "WHITE",
      "ARMCD": "PLACEBO",
      "ARM": "Placebo",
      "ACTARMCD": "PLACEBO",
      "ACTARM": "Placebo",
      "COUNTRY": "USA"
    },
    {
      "STUDYID": "XYZ123",
      "DOMAIN": "DM",
      "USUBJID": "UNI302",
      "SUBJID": "302",
      "RFSTDTC": "2010-05-12",
      "RFENDTC": "2010-11-15",
      "RFXSTDTC": "2010-05-12",
      "RFXENDTC": "2010-11-15",
      "RFICDTC": "2010-05-07",
      "RFPENDTC": "2010-11-15",
      "DTHDTC": "",
      "DTHFL": "N",
      "SITEID": "300",
      "BRTHDTC": "1978-07-02",
      "AGE": 31,
      "AGEU": "YEARS",
      "SEX": "M",
      "RACE": "BLACK OR AFRICAN AMERICAN",
      "ARMCD": "PLACEBO",
      "ARM": "Placebo",
      "ACTARMCD": "PLACEBO",
      "ACTARM": "Placebo",
      "COUNTRY": "USA"
    },
    {
      "STUDYID": "XYZ123",
      "DOMAIN": "DM",
      "USUBJID": "UNI303",
      "SUBJID": "303",
      "RFSTDTC": "2010-02-19",
      "RFENDTC": "2010-08-17",
      "RFXSTDTC": "2010-02-19",
      "RFXENDTC": "2010-08-17",
      "RFICDTC": "2010-02-12",
      "RFPENDTC": "2010-08-17",
      "DTHDTC": "",
      "DTHFL": "N",
      "SITEID": "300",
      "BRTHDTC": "1967-03-02",
      "AGE": 42,
      "AGEU": "YEARS",
      "SEX": "M",
      "RACE": "WHITE",
      "ARMCD": "ALG123",
      "ARM": "Analgezia HCL 30 mg",
      "ACTARMCD": "ALG123",
      "ACTARM": "Analgezia HCL 30 mg",
      "COUNTRY": "USA"
    },
    {
      "STUDYID": "XYZ123",
      "DOMAIN": "DM",
      "USUBJID": "UNI304",
      "SUBJID": "304",
      "RFSTDTC": "2010-05-19",
      "RFENDTC": "2010-11-19",
      "RFXSTDTC": "2010-05-19",
      "RFXENDTC": "2010-11-19",
      "RFICDTC": "2010-05-15",
      "RFPENDTC": "2010-11-20",
      "DTHDTC": "",
      "DTHFL": "N",
      "SITEID": "300",
      "BRTHDTC": "1958-03-03",
      "AGE": 52,
      "AGEU": "YEARS",
      "SEX": "M",
      "RACE": "WHITE",
      "ARMCD": "PLACEBO",
      "ARM": "Placebo",
      "ACTARMCD": "PLACEBO",
      "ACTARM": "Placebo",
      "COUNTRY": "USA"
    },
    {
      "STUDYID": "XYZ123",
      "DOMAIN": "DM",
      "USUBJID": "UNI305",
      "SUBJID": "305",
      "RFSTDTC": "2010-06-10",
      "RFENDTC": "2010-12-11",
      "RFXSTDTC": "2010-06-10",
      "RFXENDTC": "2010-12-11",
      "RFICDTC": "2010-06-07",
      "RFPENDTC": "2010-12-12",
      "DTHDTC": "",
      "DTHFL": "N",
      "SITEID": "300",
      "BRTHDTC": "1966-02-28",
      "AGE": 44,
      "AGEU": "YEARS",
      "SEX": "M",
      "RACE": "WHITE",
      "ARMCD": "ALG123",
      "ARM": "Analgezia HCL 30 mg",
      "ACTARMCD": "ALG123",
      "ACTARM": "Analgezia HCL 30 mg",
      "COUNTRY": "USA"
    },
    {
      "STUDYID": "XYZ123",
      "DOMAIN": "DM",
      "USUBJID": "UNI306",
      "SUBJID": "306",
      "RFSTDTC": "2010-05-23",
      "RFENDTC": "2010-11-18",
      "RFXSTDTC": "2010-05-23",
      "RFXENDTC": "2010-11-18",
      "RFICDTC": "2010-05-20",
      "RFPENDTC": "2010-11-19",
      "DTHDTC": "",
      "DTHFL": "N",
      "SITEID": "300",
      "BRTHDTC": "1960-01-02",
      "AGE": 50,
      "AGEU": "YEARS",
      "SEX": "M",
      "RACE": "BLACK OR AFRICAN AMERICAN",
      "ARMCD": "PLACEBO",
      "ARM": "Placebo",
      "ACTARMCD": "PLACEBO",
      "ACTARM": "Placebo",
      "COUNTRY": "USA"
    },
    {
      "STUDYID": "XYZ123",
      "DOMAIN": "DM",
      "USUBJID": "UNI401",
      "SUBJID": "401",
      "RFSTDTC": "2010-06-13",
      "RFENDTC": "2010-12-09",
      "RFXSTDTC": "2010-06-13",
      "RFXENDTC": "2010-12-09",
      "RFICDTC": "2010-06-10",
      "RFPENDTC": "2010-12-10",
      "DTHDTC": "",
      "DTHFL": "N",
      "SITEID": "400",
      "BRTHDTC": "1970-10-31",
      "AGE": 39,
      "AGEU": "YEARS",
      "SEX": "F",
      "RACE": "WHITE",
      "ARMCD": "ALG123",
      "ARM": "Analgezia HCL 30 mg",
      "ACTARMCD": "ALG123",
      "ACTARM": "Analgezia HCL 30 mg",
      "COUNTRY": "USA"
    },
    {
      "STUDYID": "XYZ123",
      "DOMAIN": "DM",
      "USUBJID": "UNI402",
      "SUBJID": "402",
      "RFSTDTC": "2010-01-02",
      "RFENDTC": "2010-07-10",
      "RFXSTDTC": "2010-01-02",
      "RFXENDTC": "2010-07-10",
      "RFICDTC": "2009-12-28",
      "RFPENDTC": "2010-02-10",
      "DTHDTC": "",
      "DTHFL": "N",
      "SITEID": "400",
      "BRTHDTC": "1980-10-12",
      "AGE": 29,
      "AGEU": "YEARS",
      "SEX": "F",
      "RACE": "BLACK OR AFRICAN AMERICAN",
      "ARMCD": "PLACEBO",
      "ARM": "Placebo",
      "ACTARMCD": "PLACEBO",
      "ACTARM": "Placebo",
      "COUNTRY": "USA"
    },
    {
      "STUDYID": "XYZ123",
      "DOMAIN": "DM",
      "USUBJID": "UNI403",
      "SUBJID": "403",
      "RFSTDTC": "2010-03-03",
      "RFENDTC": "2010-09-04",
      "RFXSTDTC": "2010-03-03",
      "RFXENDTC": "2010-09-04",
      "RFICDTC": "2010-02-28",
      "RFPENDTC": "2010-09-05",
      "DTHDTC": "",
      "DTHFL": "N",
      "SITEID": "400",
      "BRTHDTC": "1974-01-23",
      "AGE": 36,
      "AGEU": "YEARS",
      "SEX": "M",
      "RACE": "WHITE",
      "ARMCD": "ALG123",
      "ARM": "Analgezia HCL 30 mg",
      "ACTARMCD": "ALG123",
      "ACTARM": "Analgezia HCL 30 mg",
      "COUNTRY": "USA"
    },
    {
      "STUDYID": "XYZ123",
      "DOMAIN": "DM",
      "USUBJID": "UNI404",
      "SUBJID": "404",
      "RFSTDTC": "2010-04-24",
      "RFENDTC": "2010-10-25",
      "RFXSTDTC": "2010-04-24",
      "RFXENDTC": "2010-10-25",
      "RFICDTC": "2010-04-20",
      "RFPENDTC": "2010-10-26",
      "DTHDTC": "",
      "DTHFL": "N",
      "SITEID": "400",
      "BRTHDTC": "1954-03-18",
      "AGE": 56,
      "AGEU": "YEARS",
      "SEX": "M",
      "RACE": "WHITE",
      "ARMCD": "ALG123",
      "ARM": "Analgezia HCL 30 mg",
      "ACTARMCD": "ALG123",
      "ACTARM": "Analgezia HCL 30 mg",
      "COUNTRY": "USA"
    },
    {
      "STUDYID": "XYZ123",
      "DOMAIN": "DM",
      "USUBJID": "UNI405",
      "SUBJID": "405",
      "RFSTDTC": "2010-03-01",
      "RFENDTC": "2010-08-28",
      "RFXSTDTC": "2010-03-01",
      "RFXENDTC": "2010-08-28",
      "RFICDTC": "2010-02-28",
      "RFPENDTC": "2010-08-28",
      "DTHDTC": "",
      "DTHFL": "N",
      "SITEID": "400",
      "BRTHDTC": "1939-03-19",
      "AGE": 70,
      "AGEU": "YEARS",
      "SEX": "F",
      "RACE": "WHITE",
      "ARMCD": "PLACEBO",
      "ARM": "Placebo",
      "ACTARMCD": "PLACEBO",
      "ACTARM": "Placebo",
      "COUNTRY": "USA"
    },
    {
      "STUDYID": "XYZ123",
      "DOMAIN": "DM",
      "USUBJID": "UNI406",
      "SUBJID": "406",
      "RFSTDTC": "2010-06-12",
      "RFENDTC": "2010-12-09",
      "RFXSTDTC": "2010-06-12",
      "RFXENDTC": "2010-12-09",
      "RFICDTC": "2010-06-10",
      "RFPENDTC": "2010-12-09",
      "DTHDTC": "",
      "DTHFL": "N",
      "SITEID": "400",
      "BRTHDTC": "1970-03-19",
      "AGE": 40,
      "AGEU": "YEARS",
      "SEX": "M",
      "RACE": "BLACK OR AFRICAN AMERICAN",
      "ARMCD": "ALG123",
      "ARM": "Analgezia HCL 30 mg",
      "ACTARMCD": "ALG123",
      "ACTARM": "Analgezia HCL 30 mg",
      "COUNTRY": "USA"
    },
    {
      "STUDYID": "XYZ123",
      "DOMAIN": "DM",
      "USUBJID": "UNI501",
      "SUBJID": "501",
      "RFSTDTC": "2010-02-23",
      "RFENDTC": "2010-08-17",
      "RFXSTDTC": "2010-02-23",
      "RFXENDTC": "2010-08-17",
      "RFICDTC": "2010-02-18",
      "RFPENDTC": "2010-08-17",
      "DTHDTC": "",
      "DTHFL": "N",
      "SITEID": "500",
      "BRTHDTC": "1978-06-12",
      "AGE": 31,
      "AGEU": "YEARS",
      "SEX": "M",
      "RACE": "BLACK OR AFRICAN AMERICAN",
      "ARMCD": "PLACEBO",
      "ARM": "Placebo",
      "ACTARMCD": "PLACEBO",
      "ACTARM": "Placebo",
      "COUNTRY": "USA"
    },
    {
      "STUDYID": "XYZ123",
      "DOMAIN": "DM",
      "USUBJID": "UNI502",
      "SUBJID": "502",
      "RFSTDTC": "2010-05-28",
      "RFENDTC": "2010-11-20",
      "RFXSTDTC": "2010-05-28",
      "RFXENDTC": "2010-11-20",
      "RFICDTC": "2010-05-25",
      "RFPENDTC": "2010-11-20",
      "DTHDTC": "",
      "DTHFL": "N",
      "SITEID": "500",
      "BRTHDTC": "1967-03-16",
      "AGE": 43,
      "AGEU": "YEARS",
      "SEX": "F",
      "RACE": "WHITE",
      "ARMCD": "ALG123",
      "ARM": "Analgezia HCL 30 mg",
      "ACTARMCD": "ALG123",
      "ACTARM": "Analgezia HCL 30 mg",
      "COUNTRY": "USA"
    },
    {
      "STUDYID": "XYZ123",
      "DOMAIN": "DM",
      "USUBJID": "UNI503",
      "SUBJID": "503",
      "RFSTDTC": "2010-01-21",
      "RFENDTC": "2010-07-19",
      "RFXSTDTC": "2010-01-21",
      "RFXENDTC": "2010-07-19",
      "RFICDTC": "2010-01-15",
      "RFPENDTC": "2010-07-19",
      "DTHDTC": "",
      "DTHFL": "N",
      "SITEID": "500",
      "BRTHDTC": "1962-08-14",
      "AGE": 47,
      "AGEU": "YEARS",
      "SEX": "M",
      "RACE": "WHITE",
      "ARMCD": "ALG123",
      "ARM": "Analgezia HCL 30 mg",
      "ACTARMCD": "ALG123",
      "ACTARM": "Analgezia HCL 30 mg",
      "COUNTRY": "USA"
    },
    {
      "STUDYID": "XYZ123",
      "DOMAIN": "DM",
      "USUBJID": "UNI504",
      "SUBJID": "504",
      "RFSTDTC": "2010-06-19",
      "RFENDTC": "2010-12-20",
      "RFXSTDTC": "2010-06-19",
      "RFXENDTC": "2010-12-20",
      "RFICDTC": "2010-06-16",
      "RFPENDTC": "2010-12-20",
      "DTHDTC": "",
      "DTHFL": "N",
      "SITEID": "500",
      "BRTHDTC": "1977-02-01",
      "AGE": 33,
      "AGEU": "YEARS",
      "SEX": "M",
      "RACE": "ASIAN",
      "ARMCD": "PLACEBO",
      "ARM": "Placebo",
      "ACTARMCD": "PLACEBO",
      "ACTARM": "Placebo",
      "COUNTRY": "USA"
    },
    {
      "STUDYID": "XYZ123",
      "DOMAIN": "DM",
      "USUBJID": "UNI505",
      "SUBJID": "505",
      "RFSTDTC": "2010-03-13",
      "RFENDTC": "2010-06-20",
      "RFXSTDTC": "2010-03-13",
      "RFXENDTC": "2010-06-20",
      "RFICDTC": "2010-03-10",
      "RFPENDTC": "2010-09-20",
      "DTHDTC": "",
      "DTHFL": "N",
      "SITEID": "500",
      "BRTHDTC": "1969-04-16",
      "AGE": 40,
      "AGEU": "YEARS",
      "SEX": "M",
      "RACE": "BLACK OR AFRICAN AMERICAN",
      "ARMCD": "ALG123",
      "ARM": "Analgezia HCL 30 mg",
      "ACTARMCD": "ALG123",
      "ACTARM": "Analgezia HCL 30 mg",
      "COUNTRY": "USA"
    },
    {
      "STUDYID": "XYZ123",
      "DOMAIN": "DM",
      "USUBJID": "UNI506",
      "SUBJID": "506",
      "RFSTDTC": "2010-01-20",
      "RFENDTC": "2010-07-20",
      "RFXSTDTC": "2010-01-20",
      "RFXENDTC": "2010-07-20",
      "RFICDTC": "2010-01-17",
      "RFPENDTC": "2010-07-20",
      "DTHDTC": "",
      "DTHFL": "N",
      "SITEID": "500",
      "BRTHDTC": "1964-07-22",
      "AGE": 45,
      "AGEU": "YEARS",
      "SEX": "M",
      "RACE": "WHITE",
      "ARMCD": "PLACEBO",
      "ARM": "Placebo",
      "ACTARMCD": "PLACEBO",
      "ACTARM": "Placebo",
      "COUNTRY": "USA"
    },
    {
      "STUDYID": "XYZ123",
      "DOMAIN": "DM",
      "USUBJID": "UNI507",
      "SUBJID": "507",
      "RFSTDTC": "2010-04-06",
      "RFENDTC": "2010-10-05",
      "RFXSTDTC": "2010-04-06",
      "RFXENDTC": "2010-10-05",
      "RFICDTC": "2010-04-03",
      "RFPENDTC": "2010-10-06",
      "DTHDTC": "",
      "DTHFL": "N",
      "SITEID": "500",
      "BRTHDTC": "1976-10-22",
      "AGE": 33,
      "AGEU": "YEARS",
      "SEX": "M",
      "RACE": "BLACK OR AFRICAN AMERICAN",
      "ARMCD": "ALG123",
      "ARM": "Analgezia HCL 30 mg",
      "ACTARMCD": "ALG123",
      "ACTARM": "Analgezia HCL 30 mg",
      "COUNTRY": "USA"
    },
    {
      "STUDYID": "XYZ123",
      "DOMAIN": "DM",
      "USUBJID": "UNI508",
      "SUBJID": "508",
      "RFSTDTC": "2010-02-04",
      "RFENDTC": "2010-08-11",
      "RFXSTDTC": "2010-02-04",
      "RFXENDTC": "2010-08-11",
      "RFICDTC": "2010-02-01",
      "RFPENDTC": "2010-08-11",
      "DTHDTC": "",
      "DTHFL": "N",
      "SITEID": "500",
      "BRTHDTC": "1965-12-22",
      "AGE": 44,
      "AGEU": "YEARS",
      "SEX": "F",
      "RACE": "WHITE",
      "ARMCD": "PLACEBO",
      "ARM": "Placebo",
      "ACTARMCD": "PLACEBO",
      "ACTARM": "Placebo",
      "COUNTRY": "USA"
    },
    {
      "STUDYID": "XYZ123",
      "DOMAIN": "DM",
      "USUBJID": "UNI509",
      "SUBJID": "509",
      "RFSTDTC": "2010-05-16",
      "RFENDTC": "2010-11-15",
      "RFXSTDTC": "2010-05-16",
      "RFXENDTC": "2010-11-15",
      "RFICDTC": "2010-05-13",
      "RFPENDTC": "2010-11-15",
      "DTHDTC": "",
      "DTHFL": "N",
      "SITEID": "500",
      "BRTHDTC": "1972-12-13",
      "AGE": 37,
      "AGEU": "YEARS",
      "SEX": "M",
      "RACE": "WHITE",
      "ARMCD": "PLACEBO",
      "ARM": "Placebo",
      "ACTARMCD": "PLACEBO",
      "ACTARM": "Placebo",
      "COUNTRY": "USA"
    },
    {
      "STUDYID": "XYZ123",
      "DOMAIN": "DM",
      "USUBJID": "UNI510",
      "SUBJID": "510",
      "RFSTDTC": "2010-01-12",
      "RFENDTC": "2010-07-14",
      "RFXSTDTC": "2010-01-12",
      "RFXENDTC": "2010-07-14",
      "RFICDTC": "2010-01-02",
      "RFPENDTC": "2010-07-14",
      "DTHDTC": "",
      "DTHFL": "N",
      "SITEID": "500",
      "BRTHDTC": "1956-07-24",
      "AGE": 53,
      "AGEU": "YEARS",
      "SEX": "M",
      "RACE": "ASIAN",
      "ARMCD": "PLACEBO",
      "ARM": "Placebo",
      "ACTARMCD": "PLACEBO",
      "ACTARM": "Placebo",
      "COUNTRY": "USA"
    },
    {
      "STUDYID": "XYZ123",
      "DOMAIN": "DM",
      "USUBJID": "UNI511",
      "SUBJID": "511",
      "RFSTDTC": "2010-04-10",
      "RFENDTC": "2010-10-12",
      "RFXSTDTC": "2010-04-10",
      "RFXENDTC": "2010-10-12",
      "RFICDTC": "2010-04-07",
      "RFPENDTC": "2010-10-13",
      "DTHDTC": "",
      "DTHFL": "N",
      "SITEID": "500",
      "BRTHDTC": "1960-09-28",
      "AGE": 49,
      "AGEU": "YEARS",
      "SEX": "F",
      "RACE": "BLACK OR AFRICAN AMERICAN",
      "ARMCD": "ALG123",
      "ARM": "Analgezia HCL 30 mg",
      "ACTARMCD": "ALG123",
      "ACTARM": "Analgezia HCL 30 mg",
      "COUNTRY": "USA"
    },
    {
      "STUDYID": "XYZ123",
      "DOMAIN": "DM",
      "USUBJID": "UNI512",
      "SUBJID": "512",
      "RFSTDTC": "2010-04-03",
      "RFENDTC": "2010-10-01",
      "RFXSTDTC": "2010-04-03",
      "RFXENDTC": "2010-10-01",
      "RFICDTC": "2010-04-01",
      "RFPENDTC": "2010-10-01",
      "DTHDTC": "",
      "DTHFL": "N",
      "SITEID": "500",
      "BRTHDTC": "1967-03-02",
      "AGE": 43,
      "AGEU": "YEARS",
      "SEX": "M",
      "RACE": "WHITE",
      "ARMCD": "ALG123",
      "ARM": "Analgezia HCL 30 mg",
      "ACTARMCD": "ALG123",
      "ACTARM": "Analgezia HCL 30 mg",
      "COUNTRY": "USA"
    },
    {
      "STUDYID": "XYZ123",
      "DOMAIN": "DM",
      "USUBJID": "UNI601",
      "SUBJID": "601",
      "RFSTDTC": "2010-06-04",
      "RFENDTC": "2010-12-09",
      "RFXSTDTC": "2010-06-04",
      "RFXENDTC": "2010-12-09",
      "RFICDTC": "2010-06-02",
      "RFPENDTC": "2010-12-09",
      "DTHDTC": "",
      "DTHFL": "N",
      "SITEID": "600",
      "BRTHDTC": "1961-01-12",
      "AGE": 49,
      "AGEU": "YEARS",
      "SEX": "M",
      "RACE": "WHITE",
      "ARMCD": "PLACEBO",
      "ARM": "Placebo",
      "ACTARMCD": "PLACEBO",
      "ACTARM": "Placebo",
      "COUNTRY": "USA"
    },
    {
      "STUDYID": "XYZ123",
      "DOMAIN": "DM",
      "USUBJID": "UNI602",
      "SUBJID": "602",
      "RFSTDTC": "2010-02-28",
      "RFENDTC": "2010-06-22",
      "RFXSTDTC": "2010-02-28",
      "RFXENDTC": "2010-06-22",
      "RFICDTC": "2010-02-25",
      "RFPENDTC": "2010-06-23",
      "DTHDTC": "",
      "DTHFL": "N",
      "SITEID": "600",
      "BRTHDTC": "1971-05-09",
      "AGE": 38,
      "AGEU": "YEARS",
      "SEX": "F",
      "RACE": "BLACK OR AFRICAN AMERICAN",
      "ARMCD": "PLACEBO",
      "ARM": "Placebo",
      "ACTARMCD": "PLACEBO",
      "ACTARM": "Placebo",
      "COUNTRY": "USA"
    },
    {
      "STUDYID": "XYZ123",
      "DOMAIN": "DM",
      "USUBJID": "UNI603",
      "SUBJID": "603",
      "RFSTDTC": "2010-01-12",
      "RFENDTC": "2010-07-10",
      "RFXSTDTC": "2010-01-12",
      "RFXENDTC": "2010-07-10",
      "RFICDTC": "2010-01-10",
      "RFPENDTC": "2010-07-10",
      "DTHDTC": "",
      "DTHFL": "N",
      "SITEID": "600",
      "BRTHDTC": "1980-07-14",
      "AGE": 29,
      "AGEU": "YEARS",
      "SEX": "F",
      "RACE": "WHITE",
      "ARMCD": "ALG123",
      "ARM": "Analgezia HCL 30 mg",
      "ACTARMCD": "ALG123",
      "ACTARM": "Analgezia HCL 30 mg",
      "COUNTRY": "USA"
    },
    {
      "STUDYID": "XYZ123",
      "DOMAIN": "DM",
      "USUBJID": "UNI604",
      "SUBJID": "604",
      "RFSTDTC": "2010-03-13",
      "RFENDTC": "2010-09-15",
      "RFXSTDTC": "2010-03-13",
      "RFXENDTC": "2010-09-15",
      "RFICDTC": "2010-03-10",
      "RFPENDTC": "2010-09-15",
      "DTHDTC": "",
      "DTHFL": "N",
      "SITEID": "600",
      "BRTHDTC": "1977-11-11",
      "AGE": 32,
      "AGEU": "YEARS",
      "SEX": "M",
      "RACE": "WHITE",
      "ARMCD": "PLACEBO",
      "ARM": "Placebo",
      "ACTARMCD": "PLACEBO",
      "ACTARM": "Placebo",
      "COUNTRY": "USA"
    },
    {
      "STUDYID": "XYZ123",
      "DOMAIN": "DM",
      "USUBJID": "UNI605",
      "SUBJID": "605",
      "RFSTDTC": "2010-04-23",
      "RFENDTC": "2010-10-26",
      "RFXSTDTC": "2010-04-23",
      "RFXENDTC": "2010-10-26",
      "RFICDTC": "2010-04-20",
      "RFPENDTC": "2010-10-26",
      "DTHDTC": "",
      "DTHFL": "N",
      "SITEID": "600",
      "BRTHDTC": "1955-12-31",
      "AGE": 54,
      "AGEU": "YEARS",
      "SEX": "F",
      "RACE": "WHITE",
      "ARMCD": "ALG123",
      "ARM": "Analgezia HCL 30 mg",
      "ACTARMCD": "ALG123",
      "ACTARM": "Analgezia HCL 30 mg",
      "COUNTRY": "USA"
    },
    {
      "STUDYID": "XYZ123",
      "DOMAIN": "DM",
      "USUBJID": "UNI606",
      "SUBJID": "606",
      "RFSTDTC": "2010-02-22",
      "RFENDTC": "2010-08-23",
      "RFXSTDTC": "2010-02-22",
      "RFXENDTC": "2010-08-23",
      "RFICDTC": "2010-02-17",
      "RFPENDTC": "2010-08-23",
      "DTHDTC": "",
      "DTHFL": "N",
      "SITEID": "600",
      "BRTHDTC": "1971-09-20",
      "AGE": 38,
      "AGEU": "YEARS",
      "SEX": "M",
      "RACE": "BLACK OR AFRICAN AMERICAN",
      "ARMCD": "PLACEBO",
      "ARM": "Placebo",
      "ACTARMCD": "PLACEBO",
      "ACTARM": "Placebo",
      "COUNTRY": "USA"
    },
    {
      "STUDYID": "XYZ123",
      "DOMAIN": "DM",
      "USUBJID": "UNI607",
      "SUBJID": "607",
      "RFSTDTC": "2010-06-10",
      "RFENDTC": "2010-12-09",
      "RFXSTDTC": "2010-06-10",
      "RFXENDTC": "2010-12-09",
      "RFICDTC": "2010-06-07",
      "RFPENDTC": "2010-12-09",
      "DTHDTC": "",
      "DTHFL": "N",
      "SITEID": "600",
      "BRTHDTC": "1966-10-13",
      "AGE": 43,
      "AGEU": "YEARS",
      "SEX": "M",
      "RACE": "WHITE",
      "ARMCD": "ALG123",
      "ARM": "Analgezia HCL 30 mg",
      "ACTARMCD": "ALG123",
      "ACTARM": "Analgezia HCL 30 mg",
      "COUNTRY": "USA"
    },
    {
      "STUDYID": "XYZ123",
      "DOMAIN": "DM",
      "USUBJID": "UNI608",
      "SUBJID": "608",
      "RFSTDTC": "2010-02-20",
      "RFENDTC": "2010-08-17",
      "RFXSTDTC": "2010-02-20",
      "RFXENDTC": "2010-08-17",
      "RFICDTC": "2010-02-17",
      "RFPENDTC": "2010-08-17",
      "DTHDTC": "",
      "DTHFL": "N",
      "SITEID": "600",
      "BRTHDTC": "1967-07-15",
      "AGE": 42,
      "AGEU": "YEARS",
      "SEX": "F",
      "RACE": "BLACK OR AFRICAN AMERICAN",
      "ARMCD": "PLACEBO",
      "ARM": "Placebo",
      "ACTARMCD": "PLACEBO",
      "ACTARM": "Placebo",
      "COUNTRY": "USA"
    },
    {
      "STUDYID": "XYZ123",
      "DOMAIN": "DM",
      "USUBJID": "UNI609",
      "SUBJID": "609",
      "RFSTDTC": "2010-05-22",
      "RFENDTC": "2010-11-23",
      "RFXSTDTC": "2010-05-22",
      "RFXENDTC": "2010-11-23",
      "RFICDTC": "2010-05-20",
      "RFPENDTC": "2010-11-23",
      "DTHDTC": "",
      "DTHFL": "N",
      "SITEID": "600",
      "BRTHDTC": "1945-10-16",
      "AGE": 64,
      "AGEU": "YEARS",
      "SEX": "F",
      "RACE": "WHITE",
      "ARMCD": "ALG123",
      "ARM": "Analgezia HCL 30 mg",
      "ACTARMCD": "ALG123",
      "ACTARM": "Analgezia HCL 30 mg",
      "COUNTRY": "USA"
    },
    {
      "STUDYID": "XYZ123",
      "DOMAIN": "DM",
      "USUBJID": "UNI610",
      "SUBJID": "610",
      "RFSTDTC": "2010-01-09",
      "RFENDTC": "2010-07-12",
      "RFXSTDTC": "2010-01-09",
      "RFXENDTC": "2010-07-12",
      "RFICDTC": "2010-01-04",
      "RFPENDTC": "2010-07-12",
      "DTHDTC": "",
      "DTHFL": "N",
      "SITEID": "600",
      "BRTHDTC": "1954-06-22",
      "AGE": 55,
      "AGEU": "YEARS",
      "SEX": "M",
      "RACE": "WHITE",
      "ARMCD": "PLACEBO",
      "ARM": "Placebo",
      "ACTARMCD": "PLACEBO",
      "ACTARM": "Placebo",
      "COUNTRY": "USA"
    },
    {
      "STUDYID": "XYZ123",
      "DOMAIN": "DM",
      "USUBJID": "UNI611",
      "SUBJID": "611",
      "RFSTDTC": "2010-06-19",
      "RFENDTC": "2010-12-20",
      "RFXSTDTC": "2010-06-19",
      "RFXENDTC": "2010-12-20",
      "RFICDTC": "2010-06-14",
      "RFPENDTC": "2010-12-20",
      "DTHDTC": "",
      "DTHFL": "N",
      "SITEID": "600",
      "BRTHDTC": "1949-10-18",
      "AGE": 60,
      "AGEU": "YEARS",
      "SEX": "F",
      "RACE": "WHITE",
      "ARMCD": "ALG123",
      "ARM": "Analgezia HCL 30 mg",
      "ACTARMCD": "ALG123",
      "ACTARM": "Analgezia HCL 30 mg",
      "COUNTRY": "USA"
    },
    {
      "STUDYID": "XYZ123",
      "DOMAIN": "DM",
      "USUBJID": "UNI612",
      "SUBJID": "612",
      "RFSTDTC": "2010-03-12",
      "RFENDTC": "2010-09-16",
      "RFXSTDTC": "2010-03-12",
      "RFXENDTC": "2010-09-16",
      "RFICDTC": "2010-03-10",
      "RFPENDTC": "2010-09-16",
      "DTHDTC": "",
      "DTHFL": "N",
      "SITEID": "600",
      "BRTHDTC": "1960-02-02",
      "AGE": 50,
      "AGEU": "YEARS",
      "SEX": "M",
      "RACE": "BLACK OR AFRICAN AMERICAN",
      "ARMCD": "ALG123",
      "ARM": "Analgezia HCL 30 mg",
      "ACTARMCD": "ALG123",
      "ACTARM": "Analgezia HCL 30 mg",
      "COUNTRY": "USA"
    },
    {
      "STUDYID": "XYZ123",
      "DOMAIN": "DM",
      "USUBJID": "UNI701",
      "SUBJID": "701",
      "RFSTDTC": "2010-05-12",
      "RFENDTC": "2010-11-05",
      "RFXSTDTC": "2010-05-12",
      "RFXENDTC": "2010-11-05",
      "RFICDTC": "2010-05-07",
      "RFPENDTC": "2010-11-10",
      "DTHDTC": "",
      "DTHFL": "N",
      "SITEID": "700",
      "BRTHDTC": "1951-12-02",
      "AGE": 58,
      "AGEU": "YEARS",
      "SEX": "M",
      "RACE": "WHITE",
      "ARMCD": "ALG123",
      "ARM": "Analgezia HCL 30 mg",
      "ACTARMCD": "ALG123",
      "ACTARM": "Analgezia HCL 30 mg",
      "COUNTRY": "USA"
    },
    {
      "STUDYID": "XYZ123",
      "DOMAIN": "DM",
      "USUBJID": "UNI702",
      "SUBJID": "702",
      "RFSTDTC": "2010-02-10",
      "RFENDTC": "2010-08-12",
      "RFXSTDTC": "2010-02-10",
      "RFXENDTC": "2010-08-12",
      "RFICDTC": "2010-02-07",
      "RFPENDTC": "2010-08-12",
      "DTHDTC": "",
      "DTHFL": "N",
      "SITEID": "700",
      "BRTHDTC": "1955-01-29",
      "AGE": 55,
      "AGEU": "YEARS",
      "SEX": "M",
      "RACE": "WHITE",
      "ARMCD": "PLACEBO",
      "ARM": "Placebo",
      "ACTARMCD": "PLACEBO",
      "ACTARM": "Placebo",
      "COUNTRY": "USA"
    },
    {
      "STUDYID": "XYZ123",
      "DOMAIN": "DM",
      "USUBJID": "UNI703",
      "SUBJID": "703",
      "RFSTDTC": "2010-05-20",
      "RFENDTC": "2010-11-20",
      "RFXSTDTC": "2010-05-20",
      "RFXENDTC": "2010-11-20",
      "RFICDTC": "2010-05-10",
      "RFPENDTC": "2010-11-20",
      "DTHDTC": "",
      "DTHFL": "N",
      "SITEID": "700",
      "BRTHDTC": "1956-02-12",
      "AGE": 54,
      "AGEU": "YEARS",
      "SEX": "M",
      "RACE": "BLACK OR AFRICAN AMERICAN",
      "ARMCD": "ALG123",
      "ARM": "Analgezia HCL 30 mg",
      "ACTARMCD": "ALG123",
      "ACTARM": "Analgezia HCL 30 mg",
      "COUNTRY": "USA"
    },
    {
      "STUDYID": "XYZ123",
      "DOMAIN": "DM",
      "USUBJID": "UNI704",
      "SUBJID": "704",
      "RFSTDTC": "2010-06-01",
      "RFENDTC": "2010-12-10",
      "RFXSTDTC": "2010-06-01",
      "RFXENDTC": "2010-12-10",
      "RFICDTC": "2010-05-18",
      "RFPENDTC": "2010-12-10",
      "DTHDTC": "",
      "DTHFL": "N",
      "SITEID": "700",
      "BRTHDTC": "1972-12-25",
      "AGE": 37,
      "AGEU": "YEARS",
      "SEX": "F",
      "RACE": "WHITE",
      "ARMCD": "PLACEBO",
      "ARM": "Placebo",
      "ACTARMCD": "PLACEBO",
      "ACTARM": "Placebo",
      "COUNTRY": "USA"
    },
    {
      "STUDYID": "XYZ123",
      "DOMAIN": "DM",
      "USUBJID": "UNI705",
      "SUBJID": "705",
      "RFSTDTC": "2010-05-24",
      "RFENDTC": "2010-11-19",
      "RFXSTDTC": "2010-05-24",
      "RFXENDTC": "2010-11-19",
      "RFICDTC": "2010-05-20",
      "RFPENDTC": "2010-11-19",
      "DTHDTC": "",
      "DTHFL": "N",
      "SITEID": "700",
      "BRTHDTC": "1981-08-23",
      "AGE": 28,
      "AGEU": "YEARS",
      "SEX": "M",
      "RACE": "BLACK OR AFRICAN AMERICAN",
      "ARMCD": "ALG123",
      "ARM": "Analgezia HCL 30 mg",
      "ACTARMCD": "ALG123",
      "ACTARM": "Analgezia HCL 30 mg",
      "COUNTRY": "USA"
    },
    {
      "STUDYID": "XYZ123",
      "DOMAIN": "DM",
      "USUBJID": "UNI706",
      "SUBJID": "706",
      "RFSTDTC": "2010-06-12",
      "RFENDTC": "2010-12-10",
      "RFXSTDTC": "2010-06-12",
      "RFXENDTC": "2010-12-10",
      "RFICDTC": "2010-06-10",
      "RFPENDTC": "2010-12-10",
      "DTHDTC": "",
      "DTHFL": "N",
      "SITEID": "700",
      "BRTHDTC": "1965-12-13",
      "AGE": 44,
      "AGEU": "YEARS",
      "SEX": "M",
      "RACE": "WHITE",
      "ARMCD": "ALG123",
      "ARM": "Analgezia HCL 30 mg",
      "ACTARMCD": "ALG123",
      "ACTARM": "Analgezia HCL 30 mg",
      "COUNTRY": "USA"
    },
    {
      "STUDYID": "XYZ123",
      "DOMAIN": "DM",
      "USUBJID": "UNI707",
      "SUBJID": "707",
      "RFSTDTC": "2010-01-12",
      "RFENDTC": "2010-07-10",
      "RFXSTDTC": "2010-01-12",
      "RFXENDTC": "2010-07-10",
      "RFICDTC": "2010-01-04",
      "RFPENDTC": "2010-07-10",
      "DTHDTC": "",
      "DTHFL": "N",
      "SITEID": "700",
      "BRTHDTC": "1972-12-12",
      "AGE": 37,
      "AGEU": "YEARS",
      "SEX": "M",
      "RACE": "WHITE",
      "ARMCD": "ALG123",
      "ARM": "Analgezia HCL 30 mg",
      "ACTARMCD": "ALG123",
      "ACTARM": "Analgezia HCL 30 mg",
      "COUNTRY": "USA"
    },
    {
      "STUDYID": "XYZ123",
      "DOMAIN": "DM",
      "USUBJID": "UNI708",
      "SUBJID": "708",
      "RFSTDTC": "2010-03-13",
      "RFENDTC": "2010-09-15",
      "RFXSTDTC": "2010-03-13",
      "RFXENDTC": "2010-09-15",
      "RFICDTC": "2010-03-10",
      "RFPENDTC": "2010-09-15",
      "DTHDTC": "",
      "DTHFL": "N",
      "SITEID": "700",
      "BRTHDTC": "1978-10-13",
      "AGE": 31,
      "AGEU": "YEARS",
      "SEX": "F",
      "RACE": "WHITE",
      "ARMCD": "PLACEBO",
      "ARM": "Placebo",
      "ACTARMCD": "PLACEBO",
      "ACTARM": "Placebo",
      "COUNTRY": "USA"
    },
    {
      "STUDYID": "XYZ123",
      "DOMAIN": "DM",
      "USUBJID": "UNI709",
      "SUBJID": "709",
      "RFSTDTC": "2010-04-23",
      "RFENDTC": "2010-10-23",
      "RFXSTDTC": "2010-04-23",
      "RFXENDTC": "2010-10-23",
      "RFICDTC": "2010-04-19",
      "RFPENDTC": "2010-10-23",
      "DTHDTC": "",
      "DTHFL": "N",
      "SITEID": "700",
      "BRTHDTC": "1940-10-10",
      "AGE": 69,
      "AGEU": "YEARS",
      "SEX": "F",
      "RACE": "BLACK OR AFRICAN AMERICAN",
      "ARMCD": "PLACEBO",
      "ARM": "Placebo",
      "ACTARMCD": "PLACEBO",
      "ACTARM": "Placebo",
      "COUNTRY": "USA"
    },
    {
      "STUDYID": "XYZ123",
      "DOMAIN": "DM",
      "USUBJID": "UNI710",
      "SUBJID": "710",
      "RFSTDTC": "2010-03-16",
      "RFENDTC": "2010-09-16",
      "RFXSTDTC": "2010-03-16",
      "RFXENDTC": "2010-09-16",
      "RFICDTC": "2010-03-14",
      "RFPENDTC": "2010-09-16",
      "DTHDTC": "",
      "DTHFL": "N",
      "SITEID": "700",
      "BRTHDTC": "1949-08-11",
      "AGE": 60,
      "AGEU": "YEARS",
      "SEX": "M",
      "RACE": "WHITE",
      "ARMCD": "PLACEBO",
      "ARM": "Placebo",
      "ACTARMCD": "PLACEBO",
      "ACTARM": "Placebo",
      "COUNTRY": "USA"
    },
    {
      "STUDYID": "XYZ123",
      "DOMAIN": "DM",
      "USUBJID": "UNI711",
      "SUBJID": "711",
      "RFSTDTC": "2010-04-24",
      "RFENDTC": "2010-09-20",
      "RFXSTDTC": "2010-04-24",
      "RFXENDTC": "2010-09-20",
      "RFICDTC": "2010-04-20",
      "RFPENDTC": "2010-09-20",
      "DTHDTC": "",
      "DTHFL": "N",
      "SITEID": "700",
      "BRTHDTC": "1950-11-19",
      "AGE": 59,
      "AGEU": "YEARS",
      "SEX": "M",
      "RACE": "BLACK OR AFRICAN AMERICAN",
      "ARMCD": "ALG123",
      "ARM": "Analgezia HCL 30 mg",
      "ACTARMCD": "ALG123",
      "ACTARM": "Analgezia HCL 30 mg",
      "COUNTRY": "USA"
    },
    {
      "STUDYID": "XYZ123",
      "DOMAIN": "DM",
      "USUBJID": "UNI712",
      "SUBJID": "712",
      "RFSTDTC": "2010-09-09",
      "RFENDTC": "2010-09-10",
      "RFXSTDTC": "2010-09-09",
      "RFXENDTC": "2010-09-10",
      "RFICDTC": "2010-06-07",
      "RFPENDTC": "2010-12-09",
      "DTHDTC": "",
      "DTHFL": "N",
      "SITEID": "700",
      "BRTHDTC": "1948-12-30",
      "AGE": 61,
      "AGEU": "YEARS",
      "SEX": "U",
      "RACE": "WHITE",
      "ARMCD": "PLACEBO",
      "ARM": "Placebo",
      "ACTARMCD": "PLACEBO",
      "ACTARM": "Placebo",
      "COUNTRY": "USA"
    }
  ]
}
